{
  "resourceType": "Bundle",
  "id": "PatientTestBundle1",
  "type": "collection",
  "entry": [
    {
      "resource": {
        "resourceType": "Patient",
        "id": "Patient1"
      }
    },
    {
      "resource": {
        "resourceType": "Encounter",
        "id": "Encounter1",
        "status": "in-progress",
        "class": {
          "code": "AMB",
          "system": "http://terminology.hl7.org/CodeSystem/v3-ActCode"
        },
        "subject": {
          "reference": "Patient/Patient1"
        },
        "participant": [
          {
            "individual": {
              "reference": "Practitioner/Practitioner1"
            }
          }
        ]
      }
    },
    {
      "resource": {
        "resourceType": "Practitioner",
        "id": "Practitioner1"
      }
    },
    {
      "resource": {
        "resourceType": "MedicationRequest",
        "id": "PastMedicationRequest",
        "status": "active",
        "intent": "order",
        "authoredOn": "2023-01-01",
        "medicationCodeableConcept": {
          "text": "Some medication"
        },
        "subject": {
          "reference": "Patient/Patient1"
        }
      }
    }
  ]
}
