{
  "resourceType": "Parameters",
  "id": "ReportFlagParameters",
  "parameter": [
    {
      "name": "subject",
      "valueString": "Patient/Patient1"
    },
    {
      "name": "practitioner",
      "valueString": "Practitioner/Practitioner1"
    },
    {
      "name": "encounter",
      "valueString": "Encounter/Encounter1"
    },
    {
      "name": "activityDefinition",
      "resource": {
        "resourceType": "ActivityDefinition",
        "id": "ReportFlagActivity",
        "meta": {
          "profile": [
            "http://hl7.org/fhir/uv/cpg/StructureDefinition/cpg-reportflagactivity"
          ]
        },
        "kind": "Task",
        "profile": "http://hl7.org/fhir/uv/cpg/StructureDefinition/cpg-reportflagtask",
        "intent": "proposal",
        "extension": [
          {
            "url": "http://hl7.org/fhir/uv/cpg/StructureDefinition/cpg-knowledgeCapability",
            "valueCode": "publishable"
          },
          {
            "url": "http://hl7.org/fhir/uv/cpg/StructureDefinition/cpg-knowledgeRepresentationLevel",
            "valueCode": "structured"
          }
        ],
        "url": "http://example.com/ActivityDefinition/ReportFlagActivity",
        "name": "ReportFlagActivity",
        "title": "ActivityDefinition ReportFlagActivity",
        "status": "draft",
        "experimental": true,
        "publisher": "Example",
        "jurisdiction": [
          {
            "coding": [
              {
                "code": "001",
                "system": "http://unstats.un.org/unsd/methods/m49/m49.htm",
                "display": "World"
              }
            ]
          }
        ],
        "version": "0.1.0",
        "description": "Example Activity Definition for a recommendation to report a flag",
        "code": {
          "coding": [
            {
              "code": "report-flag",
              "system": "http://hl7.org/fhir/uv/cpg/CodeSystem/cpg-activity-type",
              "display": "Report a flag"
            }
          ]
        },
        "doNotPerform": false,
        "dynamicValue": [
          {
            "path": "input[0].type",
            "expression": {
              "language": "text/fhirpath",
              "expression": "code"
            }
          },
          {
            "path": "input[0].valueReference",
            "expression": {
              "language": "text/cql-identifier",
              "expression": "Report Flag Reference",
              "reference": "http://example.com/Library/ReportFlagLibrary"
            }
          }
        ]
      }
    },
    {
      "name": "data",
      "resource": {
        "resourceType": "Bundle",
        "id": "PatientTestBundle1",
        "type": "collection",
        "entry": [
          {
            "resource": {
              "resourceType": "Patient",
              "id": "Patient1",
              "name": [
                {
                  "given": [
                    "Alice"
                  ]
                }
              ]
            }
          },
          {
            "resource": {
              "resourceType": "Encounter",
              "id": "Encounter1",
              "status": "in-progress",
              "class": {
                "code": "AMB",
                "system": "http://terminology.hl7.org/CodeSystem/v3-ActCode"
              },
              "subject": {
                "reference": "Patient/Patient1"
              },
              "participant": [
                {
                  "individual": {
                    "reference": "Practitioner/Practitioner1"
                  }
                }
              ]
            }
          },
          {
            "resource": {
              "resourceType": "Practitioner",
              "id": "Practitioner1",
              "name": [
                {
                  "given": [
                    "Michael"
                  ]
                }
              ]
            }
          },
          {
            "resource": {
              "resourceType": "MedicationRequest",
              "id": "PastMedicationRequest",
              "status": "active",
              "intent": "order",
              "authoredOn": "2023-01-01",
              "medicationCodeableConcept": {
                "text": "Some medication"
              },
              "subject": {
                "reference": "Patient/Patient1"
              }
            }
          },
          {
            "resource": {
              "resourceType": "DetectedIssue",
              "id": "DetectedIssue1",
              "status": "final",
              "code": {
                "coding": [
                  {
                    "code": "TIME",
                    "system": "http://terminology.hl7.org/CodeSystem/v3-ActCode",
                    "display": "Time-related Detected Issue"
                  }
                ]
              },
              "severity": "high",
              "patient": {
                "reference": "Patient/Patient1"
              },
              "identifiedDateTime": "2023-01-01"
            }
          },
          {
            "resource": {
              "resourceType": "Condition",
              "id": "Condition1",
              "clinicalStatus": {
                "coding": [
                  {
                    "code": "active",
                    "system": "http://terminology.hl7.org/CodeSystem/condition-clinical"
                  }
                ]
              },
              "verificationStatus": {
                "coding": [
                  {
                    "code": "provisional",
                    "system": "http://terminology.hl7.org/CodeSystem/condition-ver-status"
                  }
                ]
              },
              "category": [
                {
                  "coding": [
                    {
                      "code": "problem-list-item",
                      "system": "http://terminology.hl7.org/CodeSystem/condition-category"
                    }
                  ]
                }
              ],
              "code": {
                "coding": [
                  {
                    "code": "422504002",
                    "system": "http://snomed.info/sct",
                    "display": "Ischemic stroke (disorder)"
                  }
                ]
              },
              "subject": {
                "reference": "Patient/Patient1"
              },
              "recordedDate": "2023-01-01"
            }
          },
          {
            "resource": {
              "resourceType": "Observation",
              "id": "Inference1",
              "status": "final",
              "code": {
                "text": "Inference"
              },
              "subject": {
                "reference": "Patient/Patient1"
              },
              "effectiveDateTime": "2023-01-01"
            }
          },
          {
            "resource": {
              "resourceType": "Flag",
              "id": "Flag1",
              "status": "active",
              "category": [
                {
                  "coding": [
                    {
                      "code": "admin",
                      "system": "http://terminology.hl7.org/CodeSystem/flag-category",
                      "display": "Administrative"
                    }
                  ]
                }
              ],
              "code": {
                "text": "Flag"
              },
              "subject": {
                "reference": "Patient/Patient1"
              },
              "period": {
                "start": "2023-01-01",
                "end": "2024-01-01"
              }
            }
          }
        ]
      }
    }
  ]
}
