{
  "resourceType": "Parameters",
  "id": "RecommendImmuniztionParameters",
  "parameter": [
    {
      "name": "subject",
      "valueString": "Patient/Patient1"
    },
    {
      "name": "practitioner",
      "valueString": "Practitioner/Practitioner1"
    },
    {
      "name": "encounter",
      "valueString": "Encounter/Encounter1"
    },
    {
      "name": "activityDefinition",
      "resource": {
        "resourceType": "ActivityDefinition",
        "id": "RecommendImmuniztionActivity",
        "meta": {
          "profile": [
            "http://hl7.org/fhir/uv/cpg/StructureDefinition/cpg-immunizationactivity"
          ]
        },
        "kind": "ImmunizationRecommendation",
        "profile": "http://hl7.org/fhir/uv/cpg/StructureDefinition/cpg-immunizationrecommendation",
        "intent": "proposal",
        "extension": [
          {
            "url": "http://hl7.org/fhir/uv/cpg/StructureDefinition/cpg-knowledgeCapability",
            "valueCode": "publishable"
          },
          {
            "url": "http://hl7.org/fhir/uv/cpg/StructureDefinition/cpg-knowledgeRepresentationLevel",
            "valueCode": "structured"
          }
        ],
        "url": "http://example.com/ActivityDefinition/RecommendImmuniztionActivity",
        "name": "RecommendImmuniztionActivity",
        "title": "ActivityDefinition RecommendImmuniztionActivity",
        "status": "draft",
        "experimental": true,
        "publisher": "Example",
        "jurisdiction": [
          {
            "coding": [
              {
                "code": "001",
                "system": "http://unstats.un.org/unsd/methods/m49/m49.htm",
                "display": "World"
              }
            ]
          }
        ],
        "version": "0.1.0",
        "description": "Example Activity Definition for a recommendation to provide an immunization",
        "code": {
          "coding": [
            {
              "code": "recommend-immunization",
              "system": "http://hl7.org/fhir/uv/cpg/CodeSystem/cpg-activity-type",
              "display": "Recommend an immunization"
            }
          ]
        },
        "priority": "routine",
        "doNotPerform": false,
        "productCodeableConcept": {
          "coding": [
            {
              "code": "14745005",
              "system": "http://snomed.info/sct",
              "display": "Hepatitis A vaccine"
            }
          ]
        }
      }
    },
    {
      "name": "data",
      "resource": {
        "resourceType": "Bundle",
        "id": "PatientTestBundle1",
        "type": "collection",
        "entry": [
          {
            "resource": {
              "resourceType": "Patient",
              "id": "Patient1"
            }
          },
          {
            "resource": {
              "resourceType": "Encounter",
              "id": "Encounter1",
              "status": "in-progress",
              "class": {
                "code": "AMB",
                "system": "http://terminology.hl7.org/CodeSystem/v3-ActCode"
              },
              "subject": {
                "reference": "Patient/Patient1"
              },
              "participant": [
                {
                  "individual": {
                    "reference": "Practitioner/Practitioner1"
                  }
                }
              ]
            }
          },
          {
            "resource": {
              "resourceType": "Practitioner",
              "id": "Practitioner1"
            }
          },
          {
            "resource": {
              "resourceType": "MedicationRequest",
              "id": "PastMedicationRequest",
              "status": "active",
              "intent": "order",
              "authoredOn": "2023-01-01",
              "medicationCodeableConcept": {
                "text": "Some medication"
              },
              "subject": {
                "reference": "Patient/Patient1"
              }
            }
          }
        ]
      }
    }
  ]
}
